onset	duration	subject	block	trial_type	rt	accuracy	run
109.796	0	13	MI	cue	NaN	NaN	1
120.295	0	13	MI	I	1.082	1	1
123.812	0	13	MI	I	0.628	1	1
126.895	0	13	MI	I	0.556	1	1
131.695	0	13	MI	I	0.877	1	1
135.611	0	13	MI	I	0.637	1	1
138.695	0	13	MI	C	0.549	1	1
142.295	0	13	MI	I	0.817	1	1
146.761	0	13	MI	C	0.608	1	1
150.411	0	13	MI	blank	NaN	NaN	1
154.727	0	13	MI	I	0.537	1	1
157.694	0	13	MI	I	0.601	1	1
160.744	0	13	MI	blank	NaN	NaN	1
163.26	0	13	MI	I	0.709	1	1
165.227	0	13	MI	I	0.551	1	1
168.81	0	13	MI	C	0.662	1	1
174.927	0	13	MI	I	0.649	1	1
180.426	0	13	MI	I	0.688	1	1
187.159	0	13	MI	I	0.63	1	1
189.626	0	13	MI	I	0.588	1	1
194.459	0	13	MI	I	0.657	1	1
199.959	0	13	MI	C	0.67	1	1
203.076	0	13	MI	I	0.613	1	1
205.542	0	13	MI	I	0.594	0	1
209.192	0	13	MI	I	0.65	1	1
212.292	0	13	MI	I	0.643	1	1
216.575	0	13	MI	blank	NaN	NaN	1
220.292	0	13	MI	I	0.922	1	1
227.858	0	13	MI	I	0.749	1	1
232.258	0	13	MI	I	0.696	1	1
237.808	0	13	MI	I	0.565	1	1
243.824	0	13	MI	blank	NaN	NaN	1
246.941	0	13	MI	I	0.542	1	1
252.324	0	13	MI	I	0.585	1	1
257.157	0	13	MI	blank	NaN	NaN	1
259.673	0	13	MI	I	0.698	1	1
264.007	0	13	MI	I	0.653	1	1
265.906	0	13	MI	C	0.68	1	1
269.64	0	13	MI	C	0.601	1	1
273.29	0	13	MI	I	0.595	1	1
279.923	0	13	MI	C	0.634	1	1
282.406	0	13	MI	I	0.624	1	1
286.072	0	13	MI	I	0.803	1	1
290.522	0	13	MI	I	0.593	1	1
295.955	0	13	MI	C	0.893	1	1
299.305	0	13	MI	blank	NaN	NaN	1
303.022	0	13	MI	C	0.533	1	1
305.388	0	13	MI	I	0.888	1	1
313.521	0	13	MI	I	0.693	1	1
320.854	0	13	MI	I	0.687	1	1
323.971	0	13	MI	I	1.063	1	1
326.271	0	13	MI	I	0.611	1	1
329.937	0	13	MI	C	0.867	1	1
336.237	0	13	MI	blank	NaN	NaN	1
339.954	0	13	MI	I	0.604	1	1
343.003	0	13	MI	I	0.845	1	1
346.303	0	13	MI	I	0.564	1	1
348.72	0	13	MI	C	0.681	1	1
351.837	0	13	MI	blank	NaN	NaN	1
356.153	0	13	MI	I	0.693	1	1
358.703	0	13	MI	I	0.735	1	1
366.086	0	13	MI	I	0.632	1	1
369.169	0	13	MI	I	1.108	1	1
373.336	0	13	MI	I	0.617	1	1
375.802	0	13	MI	I	0.757	1	1
379.602	0	13	MI	I	0.668	1	1
381.519	0	13	MI	I	0.549	1	1
383.919	0	13	MI	I	0.637	1	1
390.602	0	13	MI	C	0.551	1	1
456.049	0	13	MC	cue	NaN	NaN	1
466.549	0	13	MC	C	0.752	1	1
472.749	0	13	MC	C	0.658	1	1
476.465	0	13	MC	C	0.893	1	1
480.398	0	13	MC	C	0.569	1	1
484.015	0	13	MC	C	0.492	1	1
487.548	0	13	MC	I	0.703	1	1
491.298	0	13	MC	blank	NaN	NaN	1
493.214	0	13	MC	I	0.603	1	1
496.264	0	13	MC	I	0.65	1	1
498.748	0	13	MC	C	1.2	1	1
501.798	0	13	MC	C	0.685	1	1
504.914	0	13	MC	C	0.795	1	1
507.547	0	13	MC	C	0.567	1	1
511.147	0	13	MC	I	0.652	1	1
513.647	0	13	MC	C	0.604	1	1
516.697	0	13	MC	C	0.822	0	1
521.763	0	13	MC	C	0.509	1	1
523.513	0	13	MC	C	0.57	1	1
527.13	0	13	MC	C	0.625	1	1
532.013	0	13	MC	blank	NaN	NaN	1
535.729	0	13	MC	I	0.634	1	1
538.196	0	13	MC	C	0.547	1	1
541.196	0	13	MC	C	0.664	1	1
543.713	0	13	MC	C	0.673	1	1
546.846	0	13	MC	C	0.763	1	1
549.446	0	13	MC	C	0.536	1	1
553.629	0	13	MC	C	0.641	1	1
556.712	0	13	MC	C	0.602	1	1
559.762	0	13	MC	blank	NaN	NaN	1
562.878	0	13	MC	C	0.631	1	1
567.162	0	13	MC	C	0.52	1	1
570.128	0	13	MC	C	0.513	1	1
573.695	0	13	MC	I	0.887	1	1
578.228	0	13	MC	blank	NaN	NaN	1
583.744	0	13	MC	C	0.794	1	1
586.978	0	13	MC	C	0.557	1	1
591.794	0	13	MC	C	0.873	1	1
593.911	0	13	MC	C	0.442	1	1
596.211	0	13	MC	C	0.461	1	1
599.71	0	13	MC	C	0.61	1	1
604.56	0	13	MC	C	0.654	0	1
607.06	0	13	MC	C	0.597	1	1
610.693	0	13	MC	C	0.615	1	1
614.96	0	13	MC	blank	NaN	NaN	1
619.276	0	13	MC	I	0.825	1	1
622.543	0	13	MC	C	0.716	1	1
626.309	0	13	MC	blank	NaN	NaN	1
633.626	0	13	MC	C	0.905	1	1
636.376	0	13	MC	C	0.643	1	1
641.875	0	13	MC	C	0.643	1	1
644.359	0	13	MC	I	0.844	1	1
648.859	0	13	MC	C	0.611	1	1
650.725	0	13	MC	C	0.738	1	1
653.892	0	13	MC	C	0.751	1	1
661.275	0	13	MC	C	0.548	1	1
664.275	0	13	MC	I	0.808	0	1
668.741	0	13	MC	blank	NaN	NaN	1
671.858	0	13	MC	C	0.654	1	1
674.958	0	13	MC	C	0.641	1	1
678.041	0	13	MC	I	0.722	1	1
681.807	0	13	MC	blank	NaN	NaN	1
686.124	0	13	MC	C	0.59	1	1
687.957	0	13	MC	I	0.502	1	1
691.507	0	13	MC	C	0.505	1	1
693.257	0	13	MC	C	0.636	1	1
699.34	0	13	MC	I	0.58	1	1
703.573	0	13	MC	C	0.794	1	1
705.607	0	13	MC	C	0.715	1	1
769.437	0	13	MC	cue	NaN	NaN	1
779.937	0	13	MC	C	0.893	1	1
783.27	0	13	MC	C	0.475	1	1
787.387	0	13	MC	C	0.486	1	1
790.92	0	13	MC	C	0.643	1	1
794.003	0	13	MC	C	0.578	1	1
797.02	0	13	MC	blank	NaN	NaN	1
801.936	0	13	MC	C	0.678	1	1
807.469	0	13	MC	C	0.975	1	1
812.086	0	13	MC	C	0.581	1	1
815.702	0	13	MC	C	0.558	1	1
819.319	0	13	MC	I	0.84	1	1
823.219	0	13	MC	blank	NaN	NaN	1
827.535	0	13	MC	C	0.791	1	1
830.168	0	13	MC	I	0.88	1	1
833.485	0	13	MC	C	0.557	1	1
835.285	0	13	MC	I	0.77	1	1
840.885	0	13	MC	C	1.073	1	1
846.201	0	13	MC	C	0.549	1	1
848.601	0	13	MC	C	2.05	1	1
851.901	0	13	MC	C	0.467	1	1
854.217	0	13	MC	C	0.549	0	1
859.617	0	13	MC	C	0.634	1	1
862.1	0	13	MC	C	0.633	1	1
868.184	0	13	MC	C	0.629	1	1
871.85	0	13	MC	C	0.624	1	1
876.717	0	13	MC	C	0.617	1	1
879.183	0	13	MC	I	0.768	0	1
881.183	0	13	MC	blank	NaN	NaN	1
883.7	0	13	MC	I	0.604	1	1
886.15	0	13	MC	C	0.754	1	1
888.149	0	13	MC	C	0.638	1	1
890.633	0	13	MC	blank	NaN	NaN	1
893.149	0	13	MC	C	0.911	1	1
897.116	0	13	MC	C	0.776	1	1
902.132	0	13	MC	C	0.685	1	1
905.865	0	13	MC	C	0.903	1	1
909.215	0	13	MC	I	0.908	1	1
913.165	0	13	MC	blank	NaN	NaN	1
917.482	0	13	MC	I	0.833	1	1
920.765	0	13	MC	C	0.726	1	1
922.732	0	13	MC	blank	NaN	NaN	1
924.648	0	13	MC	I	0.977	1	1
927.465	0	13	MC	I	0.693	1	1
932.414	0	13	MC	C	1.422	1	1
935.681	0	13	MC	blank	NaN	NaN	1
941.197	0	13	MC	C	0.707	1	1
946.747	0	13	MC	C	0.712	1	1
948.714	0	13	MC	C	0.593	1	1
952.364	0	13	MC	C	0.619	1	1
958.43	0	13	MC	C	0.639	1	1
960.313	0	13	MC	I	1.09	1	1
963.247	0	13	MC	C	0.653	1	1
965.146	0	13	MC	C	0.686	1	1
967.08	0	13	MC	I	0.923	1	1
972.246	0	13	MC	C	1.733	1	1
977.029	0	13	MC	C	0.901	1	1
979.179	0	13	MC	C	0.457	1	1
983.296	0	13	MC	C	0.549	1	1
985.696	0	13	MC	C	1.066	1	1
991.012	0	13	MC	C	0.616	1	1
995.262	0	13	MC	C	0.513	1	1
998.212	0	13	MC	C	0.654	1	1
1003.112	0	13	MC	C	0.557	1	1
1004.912	0	13	MC	C	0.823	1	1
1006.978	0	13	MC	C	0.759	1	1
1008.978	0	13	MC	C	1.815	1	1
1012.045	0	13	MC	I	0.772	1	1
1017.661	0	13	MC	blank	NaN	NaN	1
1074.742	0	13	MI	cue	NaN	NaN	1
1085.242	0	13	MI	I	0.754	1	1
1090.825	0	13	MI	I	1.404	1	1
1094.675	0	13	MI	I	0.602	1	1
1097.725	0	13	MI	I	0.858	1	1
1101.625	0	13	MI	I	0.907	1	1
1104.991	0	13	MI	I	1.066	1	1
1112.108	0	13	MI	I	0.77	1	1
1114.724	0	13	MI	I	0.76	1	1
1119.724	0	13	MI	I	0.629	1	1
1123.391	0	13	MI	C	0.518	1	1
1126.357	0	13	MI	I	1.54	1	1
1131.557	0	13	MI	I	1.456	1	1
1134.873	0	13	MI	I	0.617	1	1
1138.523	0	13	MI	blank	NaN	NaN	1
1143.44	0	13	MI	I	1.696	1	1
1146.39	0	13	MI	I	0.668	1	1
1148.306	0	13	MI	blank	NaN	NaN	1
1150.823	0	13	MI	I	1.299	1	1
1154.556	0	13	MI	I	0.686	1	1
1157.689	0	13	MI	I	0.766	1	1
1160.289	0	13	MI	I	0.644	1	1
1162.772	0	13	MI	C	0.704	0	1
1165.922	0	13	MI	C	0.91	1	1
1168.072	0	13	MI	blank	NaN	NaN	1
1172.389	0	13	MI	C	1.06	1	1
1175.305	0	13	MI	I	0.934	1	1
1179.288	0	13	MI	I	1.067	1	1
1183.405	0	13	MI	C	0.808	1	1
1185.471	0	13	MI	blank	NaN	NaN	1
1192.188	0	13	MI	I	1.83	1	1
1197.054	0	13	MI	I	1.009	1	1
1200.504	0	13	MI	I	0.729	1	1
1202.487	0	13	MI	I	1.214	1	1
1207.354	0	13	MI	I	1.02	1	1
1211.421	0	13	MI	I	1.614	1	1
1216.67	0	13	MI	I	0.971	1	1
1218.887	0	13	MI	I	0.655	1	1
1222.587	0	13	MI	blank	NaN	NaN	1
1227.503	0	13	MI	I	0.775	1	1
1229.52	0	13	MI	I	1.168	1	1
1231.936	0	13	MI	I	0.844	1	1
1235.82	0	13	MI	I	1.22	1	1
1238.886	0	13	MI	C	1.381	1	1
1244.519	0	13	MI	I	1.597	1	1
1249.169	0	13	MI	C	0.676	1	1
1252.886	0	13	MI	blank	NaN	NaN	1
1256.602	0	13	MI	I	0.91	1	1
1259.969	0	13	MI	I	1.531	1	1
1265.152	0	13	MI	I	3.747	1	1
1270.135	0	13	MI	I	0.958	0	1
1275.935	0	13	MI	C	0.547	1	1
1280.135	0	13	MI	I	0.676	1	1
1283.851	0	13	MI	I	0.801	1	1
1289.501	0	13	MI	I	1.32	1	1
1293.867	0	13	MI	I	0.984	1	1
1296.701	0	13	MI	blank	NaN	NaN	1
1299.817	0	13	MI	I	0.714	1	1
1301.784	0	13	MI	I	0.748	1	1
1306.767	0	13	MI	I	0.807	1	1
1310.617	0	13	MI	C	3.088	1	1
1316.167	0	13	MI	I	0.788	1	1
1320	0	13	MI	C	1.365	1	1
1324.999	0	13	MI	I	0.844	1	1
1333.083	0	13	MI	I	0.662	1	1
1336.782	0	13	MI	C	0.835	1	1
1340.066	0	13	MI	blank	NaN	NaN	1
1343.782	0	13	MI	C	1.172	1	1
1347.999	0	13	MI	I	0.851	1	1
