onset	duration	subject	block	trial_type	rt	accuracy	run
44.298	0	15	MI	cue	NaN	NaN	2
54.798	0	15	MI	I	0.695	1	2
61.531	0	15	MI	I	0.642	1	2
65.231	0	15	MI	I	0.587	1	2
68.864	0	15	MI	I	0.831	1	2
75.73	0	15	MI	C	0.605	1	2
78.18	0	15	MI	C	0.567	1	2
81.797	0	15	MI	I	0.66	1	2
83.714	0	15	MI	I	0.813	1	2
90.563	0	15	MI	I	0.643	1	2
93.647	0	15	MI	I	0.649	1	2
97.33	0	15	MI	I	0.56	1	2
99.13	0	15	MI	C	0.711	1	2
101.08	0	15	MI	blank	NaN	NaN	2
104.196	0	15	MI	I	0.512	1	2
105.963	0	15	MI	I	0.64	1	2
108.446	0	15	MI	I	0.519	1	2
113.813	0	15	MI	blank	NaN	NaN	2
117.529	0	15	MI	I	1.166	1	2
119.946	0	15	MI	I	0.648	1	2
123.629	0	15	MI	I	0.651	1	2
125.512	0	15	MI	C	0.78	1	2
128.729	0	15	MI	I	0.623	1	2
135.395	0	15	MI	C	0.61	1	2
140.245	0	15	MI	blank	NaN	NaN	2
145.162	0	15	MI	I	0.595	1	2
148.795	0	15	MI	I	0.566	1	2
155.395	0	15	MI	I	0.723	1	2
157.961	0	15	MI	I	0.736	1	2
165.344	0	15	MI	I	0.624	1	2
167.811	0	15	MI	I	0.605	1	2
169.661	0	15	MI	C	0.531	1	2
172.644	0	15	MI	I	0.608	1	2
174.494	0	15	MI	C	0.64	1	2
180.577	0	15	MI	C	0.647	1	2
184.277	0	15	MI	blank	NaN	NaN	2
186.194	0	15	MI	I	0.768	1	2
188.81	0	15	MI	I	0.578	1	2
192.427	0	15	MI	C	0.488	1	2
195.96	0	15	MI	I	0.626	1	2
199.643	0	15	MI	I	0.652	1	2
206.343	0	15	MI	I	0.881	1	2
214.459	0	15	MI	I	0.583	1	2
216.893	0	15	MI	I	0.499	1	2
218.626	0	15	MI	I	0.812	1	2
222.492	0	15	MI	C	0.484	1	2
224.826	0	15	MI	blank	NaN	NaN	2
227.342	0	15	MI	I	0.686	1	2
233.476	0	15	MI	I	0.909	1	2
236.842	0	15	MI	blank	NaN	NaN	2
239.959	0	15	MI	I	0.594	1	2
242.392	0	15	MI	C	0.588	1	2
244.225	0	15	MI	I	0.909	1	2
249.992	0	15	MI	I	0.713	1	2
255.558	0	15	MI	blank	NaN	NaN	2
258.075	0	15	MI	I	0.756	1	2
261.275	0	15	MI	I	1.058	1	2
265.975	0	15	MI	I	0.717	1	2
268.541	0	15	MI	C	0.786	1	2
274.758	0	15	MI	I	0.65	1	2
279.041	0	15	MI	I	0.741	1	2
282.841	0	15	MI	I	0.916	1	2
286.807	0	15	MI	I	0.642	1	2
291.69	0	15	MI	I	0.568	1	2
294.09	0	15	MI	I	0.55	1	2
296.49	0	15	MI	I	0.595	1	2
298.94	0	15	MI	I	0.822	1	2
305.223	0	15	MI	blank	NaN	NaN	2
307.74	0	15	MI	I	0.671	1	2
367.271	0	15	MC	cue	NaN	NaN	2
377.271	0	15	MC	C	0.6	1	2
380.304	0	15	MC	C	0.911	1	2
384.871	0	15	MC	C	0.567	1	2
386.671	0	15	MC	C	0.536	1	2
389.054	0	15	MC	C	0.534	1	2
390.821	0	15	MC	C	0.753	1	2
394.621	0	15	MC	C	0.656	1	2
397.12	0	15	MC	I	0.522	1	2
401.287	0	15	MC	blank	NaN	NaN	2
405.003	0	15	MC	C	0.599	1	2
408.653	0	15	MC	C	0.694	1	2
410.587	0	15	MC	I	0.637	1	2
413.07	0	15	MC	C	0.671	1	2
416.786	0	15	MC	C	0.657	1	2
421.686	0	15	MC	I	1.141	1	2
424.67	0	15	MC	blank	NaN	NaN	2
431.986	0	15	MC	C	0.662	1	2
438.702	0	15	MC	C	0.578	1	2
442.319	0	15	MC	C	0.921	1	2
445.085	0	15	MC	C	0.865	1	2
447.185	0	15	MC	blank	NaN	NaN	2
453.902	0	15	MC	I	0.669	1	2
459.418	0	15	MC	C	0.728	1	2
462.002	0	15	MC	C	0.625	1	2
467.468	0	15	MC	C	0.758	1	2
471.285	0	15	MC	C	0.534	1	2
474.868	0	15	MC	C	0.643	1	2
477.368	0	15	MC	C	0.48	1	2
480.884	0	15	MC	blank	NaN	NaN	2
486.401	0	15	MC	I	0.737	1	2
490.184	0	15	MC	C	0.693	1	2
493.334	0	15	MC	C	0.583	1	2
498.167	0	15	MC	C	0.593	1	2
500.001	0	15	MC	C	0.737	1	2
504.984	0	15	MC	C	0.5	1	2
506.734	0	15	MC	I	0.663	1	2
508.634	0	15	MC	C	0.542	1	2
512.833	0	15	MC	I	0.9	1	2
516.783	0	15	MC	blank	NaN	NaN	2
519.9	0	15	MC	C	0.754	1	2
526.1	0	15	MC	C	0.497	1	2
529.633	0	15	MC	C	0.665	1	2
533.333	0	15	MC	C	0.513	1	2
535.699	0	15	MC	I	0.691	1	2
537.633	0	15	MC	C	0.68	1	2
539.549	0	15	MC	C	0.654	1	2
543.249	0	15	MC	C	2.036	1	2
548.932	0	15	MC	C	0.539	1	2
552.516	0	15	MC	C	0.616	1	2
559.782	0	15	MC	C	0.619	1	2
561.649	0	15	MC	I	0.812	1	2
566.698	0	15	MC	I	0.557	1	2
570.315	0	15	MC	C	0.675	1	2
572.832	0	15	MC	C	0.49	1	2
576.381	0	15	MC	I	0.701	1	2
579.515	0	15	MC	C	0.537	1	2
581.898	0	15	MC	blank	NaN	NaN	2
586.214	0	15	MC	I	0.794	1	2
590.064	0	15	MC	blank	NaN	NaN	2
593.181	0	15	MC	C	0.526	1	2
595.548	0	15	MC	C	0.552	1	2
598.547	0	15	MC	C	0.988	1	2
601.981	0	15	MC	C	0.547	1	2
604.981	0	15	MC	C	0.467	1	2
611.497	0	15	MC	C	1.121	1	2
613.88	0	15	MC	C	0.886	1	2
617.814	0	15	MC	blank	NaN	NaN	2
621.53	0	15	MC	C	0.497	1	2
686.961	0	15	MC	cue	NaN	NaN	2
696.961	0	15	MC	C	1.13	1	2
701.144	0	15	MC	C	0.426	1	2
704.011	0	15	MC	C	0.674	1	2
705.927	0	15	MC	C	0.385	1	2
708.744	0	15	MC	I	1.296	1	2
711.277	0	15	MC	I	1.361	0	2
717.477	0	15	MC	I	1.783	1	2
721.71	0	15	MC	C	0.614	1	2
725.977	0	15	MC	C	0.548	1	2
728.36	0	15	MC	C	0.681	1	2
735.693	0	15	MC	C	0.872	1	2
739.61	0	15	MC	C	0.588	1	2
743.843	0	15	MC	C	0.585	1	2
749.276	0	15	MC	I	0.97	1	2
751.493	0	15	MC	C	0.715	1	2
755.243	0	15	MC	I	0.678	1	2
757.776	0	15	MC	C	0.67	1	2
762.092	0	15	MC	C	0.771	1	2
765.892	0	15	MC	C	0.407	1	2
769.942	0	15	MC	C	0.627	1	2
773.025	0	15	MC	C	0.689	1	2
774.958	0	15	MC	C	0.467	1	2
778.475	0	15	MC	C	0.512	1	2
780.825	0	15	MC	C	0.659	1	2
784.525	0	15	MC	I	0.816	1	2
787.791	0	15	MC	C	0.522	1	2
790.758	0	15	MC	C	0.665	1	2
794.475	0	15	MC	C	0.676	1	2
798.191	0	15	MC	I	0.552	1	2
800.591	0	15	MC	blank	NaN	NaN	2
808.507	0	15	MC	C	0.592	1	2
810.957	0	15	MC	C	0.639	1	2
815.241	0	15	MC	C	0.494	1	2
818.79	0	15	MC	C	0.678	1	2
821.907	0	15	MC	C	0.605	1	2
824.957	0	15	MC	C	1.381	1	2
832.39	0	15	MC	C	0.79	1	2
833.823	0	15	MC	blank	NaN	NaN	2
840.54	0	15	MC	C	0.598	1	2
842.373	0	15	MC	C	0.822	1	2
845.04	0	15	MC	I	2.035	1	2
849.523	0	15	MC	blank	NaN	NaN	2
852.039	0	15	MC	C	0.662	1	2
855.139	0	15	MC	C	0.573	1	2
858.156	0	15	MC	C	0.427	1	2
861.039	0	15	MC	C	0.385	1	2
867.472	0	15	MC	C	0.704	1	2
871.222	0	15	MC	C	0.537	1	2
874.805	0	15	MC	I	0.684	1	2
878.539	0	15	MC	blank	NaN	NaN	2
881.655	0	15	MC	I	0.715	1	2
886.022	0	15	MC	C	0.607	1	2
888.488	0	15	MC	I	0.5	1	2
891.438	0	15	MC	blank	NaN	NaN	2
896.955	0	15	MC	C	1.059	1	2
901.654	0	15	MC	C	0.818	1	2
904.321	0	15	MC	blank	NaN	NaN	2
907.438	0	15	MC	C	0.757	0	2
910.038	0	15	MC	C	0.593	1	2
913.671	0	15	MC	C	0.505	1	2
917.221	0	15	MC	C	0.532	1	2
920.187	0	15	MC	C	0.46	1	2
923.687	0	15	MC	blank	NaN	NaN	2
926.204	0	15	MC	I	0.704	1	2
928.77	0	15	MC	C	0.487	1	2
932.904	0	15	MC	blank	NaN	NaN	2
935.42	0	15	MC	C	0.626	1	2
937.887	0	15	MC	C	0.847	1	2
1003.485	0	15	MI	cue	NaN	NaN	2
1013.984	0	15	MI	I	0.861	1	2
1018.501	0	15	MI	I	0.59	1	2
1020.934	0	15	MI	I	0.622	1	2
1022.801	0	15	MI	I	0.656	1	2
1026.501	0	15	MI	C	0.57	1	2
1028.917	0	15	MI	blank	NaN	NaN	2
1032.034	0	15	MI	I	0.734	1	2
1040.017	0	15	MI	I	0.741	1	2
1044.4	0	15	MI	I	0.983	1	2
1047.833	0	15	MI	C	0.504	1	2
1051.383	0	15	MI	I	0.792	1	2
1054.616	0	15	MI	I	0.705	1	2
1056.566	0	15	MI	I	0.948	1	2
1062.949	0	15	MI	I	0.551	1	2
1066.549	0	15	MI	I	1.079	0	2
1072.482	0	15	MI	I	0.942	1	2
1076.482	0	15	MI	I	0.613	1	2
1080.149	0	15	MI	I	0.644	1	2
1082.049	0	15	MI	I	1.073	1	2
1084.965	0	15	MI	I	0.502	1	2
1091.499	0	15	MI	C	0.85	1	2
1095.398	0	15	MI	blank	NaN	NaN	2
1100.315	0	15	MI	I	0.644	1	2
1104.615	0	15	MI	I	0.719	1	2
1107.781	0	15	MI	blank	NaN	NaN	2
1110.898	0	15	MI	I	0.902	1	2
1113.048	0	15	MI	C	1.131	1	2
1116.031	0	15	MI	blank	NaN	NaN	2
1120.348	0	15	MI	I	0.923	1	2
1124.331	0	15	MI	I	0.885	1	2
1128.247	0	15	MI	I	0.548	1	2
1130.647	0	15	MI	C	0.653	1	2
1137.93	0	15	MI	I	1.052	1	2
1140.83	0	15	MI	I	0.599	1	2
1142.68	0	15	MI	I	0.757	1	2
1147.68	0	15	MI	I	0.726	1	2
1149.647	0	15	MI	I	3.746	1	2
1157.646	0	15	MI	I	0.919	1	2
1164.613	0	15	MI	blank	NaN	NaN	2
1171.929	0	15	MI	I	0.745	1	2
1174.529	0	15	MI	I	0.914	1	2
1177.279	0	15	MI	I	0.971	0	2
1181.896	0	15	MI	C	0.93	1	2
1184.062	0	15	MI	C	0.652	1	2
1186.546	0	15	MI	I	0.703	1	2
1188.496	0	15	MI	C	0.68	1	2
1190.412	0	15	MI	blank	NaN	NaN	2
1194.129	0	15	MI	I	1.2	1	2
1198.379	0	15	MI	I	0.69	1	2
1201.512	0	15	MI	I	1.129	1	2
1204.495	0	15	MI	I	0.906	1	2
1207.862	0	15	MI	I	0.64	1	2
1210.345	0	15	MI	I	0.79	1	2
1215.978	0	15	MI	I	0.732	1	2
1220.361	0	15	MI	C	0.691	1	2
1227.694	0	15	MI	I	3.165	1	2
1233.294	0	15	MI	C	0.639	1	2
1235.777	0	15	MI	I	0.726	1	2
1238.944	0	15	MI	blank	NaN	NaN	2
1246.86	0	15	MI	I	0.657	1	2
1249.36	0	15	MI	blank	NaN	NaN	2
1253.077	0	15	MI	I	0.726	1	2
1259.243	0	15	MI	C	0.756	1	2
1266.06	0	15	MI	I	0.767	1	2
1269.876	0	15	MI	I	0.602	1	2
1272.326	0	15	MI	I	1.002	1	2
1278.776	0	15	MI	I	0.676	1	2
1282.493	0	15	MI	C	0.607	1	2
