onset	duration	subject	block	trial_type	rt	accuracy	run
118.763	0	8	MC	cue	NaN	NaN	1
128.763	0	8	MC	C	1.238	1	1
134.863	0	8	MC	C	0.595	1	1
137.296	0	8	MC	C	0.647	1	1
143.979	0	8	MC	C	0.497	1	1
149.312	0	8	MC	C	0.648	1	1
153.612	0	8	MC	C	0.578	1	1
158.429	0	8	MC	C	0.512	1	1
161.395	0	8	MC	C	0.647	1	1
163.878	0	8	MC	I	0.63	1	1
166.362	0	8	MC	C	0.557	1	1
172.361	0	8	MC	blank	NaN	NaN	1
175.478	0	8	MC	C	0.518	1	1
178.445	0	8	MC	C	0.568	1	1
180.861	0	8	MC	I	0.746	1	1
185.261	0	8	MC	C	0.55	1	1
187.661	0	8	MC	C	0.702	1	1
190.794	0	8	MC	C	0.621	1	1
198.661	0	8	MC	blank	NaN	NaN	1
201.777	0	8	MC	I	0.808	1	1
206.227	0	8	MC	C	0.502	1	1
209.777	0	8	MC	C	0.665	1	1
212.293	0	8	MC	C	0.7	1	1
216.027	0	8	MC	C	0.549	1	1
220.827	0	8	MC	C	0.509	1	1
223.776	0	8	MC	I	0.692	1	1
228.11	0	8	MC	C	0.625	1	1
229.993	0	8	MC	C	0.52	1	1
236.559	0	8	MC	C	0.503	1	1
240.109	0	8	MC	I	0.528	0	1
243.676	0	8	MC	C	0.562	1	1
249.076	0	8	MC	C	0.719	1	1
252.826	0	8	MC	C	0.509	1	1
255.775	0	8	MC	blank	NaN	NaN	1
262.492	0	8	MC	C	0.513	1	1
264.242	0	8	MC	I	0.706	1	1
266.792	0	8	MC	C	0.522	1	1
270.375	0	8	MC	C	0.818	1	1
274.241	0	8	MC	I	0.749	1	1
276.842	0	8	MC	blank	NaN	NaN	1
283.558	0	8	MC	C	0.787	1	1
287.991	0	8	MC	C	0.543	0	1
291.591	0	8	MC	C	0.554	1	1
295.191	0	8	MC	C	0.703	1	1
301.941	0	8	MC	C	0.674	1	1
308.657	0	8	MC	I	0.62	1	1
312.307	0	8	MC	blank	NaN	NaN	1
320.223	0	8	MC	C	0.677	1	1
323.357	0	8	MC	C	0.484	1	1
326.89	0	8	MC	C	0.801	1	1
330.74	0	8	MC	C	0.579	1	1
334.973	0	8	MC	I	0.928	1	1
337.14	0	8	MC	C	0.687	1	1
340.273	0	8	MC	blank	NaN	NaN	1
342.189	0	8	MC	I	0.743	1	1
344.173	0	8	MC	blank	NaN	NaN	1
348.489	0	8	MC	C	0.692	1	1
355.222	0	8	MC	I	0.621	1	1
357.689	0	8	MC	blank	NaN	NaN	1
362.605	0	8	MC	C	0.696	1	1
366.355	0	8	MC	C	0.591	1	1
368.189	0	8	MC	C	0.611	1	1
371.838	0	8	MC	C	0.635	1	1
375.522	0	8	MC	C	0.84	1	1
379.405	0	8	MC	C	0.627	1	1
383.071	0	8	MC	C	0.598	1	1
386.705	0	8	MC	C	0.62	1	1
392.171	0	8	MC	I	0.769	1	1
395.988	0	8	MC	C	0.869	1	1
470.902	0	8	MI	cue	NaN	NaN	1
481.402	0	8	MI	I	0.881	1	1
485.335	0	8	MI	I	0.72	1	1
487.901	0	8	MI	I	0.622	1	1
491.568	0	8	MI	I	0.594	1	1
495.201	0	8	MI	I	0.872	1	1
498.518	0	8	MI	C	0.644	1	1
500.418	0	8	MI	blank	NaN	NaN	1
505.934	0	8	MI	I	0.621	1	1
510.201	0	8	MI	blank	NaN	NaN	1
513.917	0	8	MI	I	0.694	1	1
515.851	0	8	MI	I	0.749	1	1
519.634	0	8	MI	I	0.701	1	1
525.184	0	8	MI	I	0.657	1	1
527.684	0	8	MI	I	0.742	1	1
531.467	0	8	MI	I	0.646	1	1
536.367	0	8	MI	I	0.639	1	1
541.25	0	8	MI	I	0.581	1	1
544.883	0	8	MI	I	0.736	1	1
546.866	0	8	MI	I	0.564	1	1
549.883	0	8	MI	blank	NaN	NaN	1
554.199	0	8	MI	C	0.555	1	1
558.399	0	8	MI	C	0.765	1	1
564.016	0	8	MI	I	0.711	1	1
566.566	0	8	MI	C	0.553	1	1
568.966	0	8	MI	I	0.59	1	1
571.399	0	8	MI	I	0.58	1	1
573.832	0	8	MI	C	0.644	1	1
577.532	0	8	MI	I	0.533	1	1
580.499	0	8	MI	I	0.545	1	1
587.082	0	8	MI	I	0.635	1	1
588.965	0	8	MI	I	0.602	1	1
590.815	0	8	MI	I	0.666	1	1
596.915	0	8	MI	I	0.641	1	1
600.598	0	8	MI	I	0.6	1	1
604.248	0	8	MI	I	0.549	1	1
607.248	0	8	MI	I	0.57	1	1
609.664	0	8	MI	I	0.694	1	1
614.614	0	8	MI	I	0.61	1	1
616.464	0	8	MI	I	0.563	1	1
618.864	0	8	MI	C	0.577	1	1
621.881	0	8	MI	I	0.564	1	1
625.481	0	8	MI	blank	NaN	NaN	1
627.997	0	8	MI	I	0.621	1	1
631.664	0	8	MI	C	0.518	1	1
633.43	0	8	MI	C	0.64	1	1
638.313	0	8	MI	blank	NaN	NaN	1
640.23	0	8	MI	C	0.716	1	1
642.78	0	8	MI	blank	NaN	NaN	1
645.296	0	8	MI	I	0.64	1	1
649.58	0	8	MI	I	0.604	1	1
651.43	0	8	MI	I	0.582	1	1
655.063	0	8	MI	I	0.561	0	1
658.679	0	8	MI	I	0.552	1	1
661.079	0	8	MI	I	0.615	1	1
662.929	0	8	MI	I	0.53	1	1
664.696	0	8	MI	I	0.728	1	1
669.662	0	8	MI	C	0.769	1	1
673.479	0	8	MI	I	0.654	1	1
680.179	0	8	MI	I	0.639	1	1
683.279	0	8	MI	I	1.402	1	1
686.529	0	8	MI	I	0.642	1	1
690.212	0	8	MI	I	0.714	1	1
694.562	0	8	MI	C	0.555	1	1
698.162	0	8	MI	blank	NaN	NaN	1
702.478	0	8	MI	I	0.742	1	1
709.278	0	8	MI	C	0.72	1	1
711.244	0	8	MI	I	0.771	1	1
714.461	0	8	MI	blank	NaN	NaN	1
781.526	0	8	MI	cue	NaN	NaN	1
792.025	0	8	MI	I	0.8	1	1
798.258	0	8	MI	I	0.672	1	1
800.775	0	8	MI	I	0.627	1	1
807.441	0	8	MI	I	0.63	1	1
811.125	0	8	MI	C	0.485	1	1
815.241	0	8	MI	I	0.553	1	1
817.641	0	8	MI	C	0.723	1	1
819.608	0	8	MI	I	0.626	1	1
823.274	0	8	MI	C	0.501	1	1
825.024	0	8	MI	I	0.627	1	1
828.707	0	8	MI	I	0.672	1	1
830.624	0	8	MI	I	0.605	0	1
833.674	0	8	MI	I	0.631	1	1
836.14	0	8	MI	I	0.81	1	1
841.79	0	8	MI	I	0.781	1	1
846.207	0	8	MI	I	0.706	1	1
853.573	0	8	MI	I	0.773	1	1
857.99	0	8	MI	I	0.69	1	1
861.123	0	8	MI	I	0.796	1	1
868.556	0	8	MI	I	0.666	1	1
873.456	0	8	MI	C	0.603	1	1
880.706	0	8	MI	I	0.853	1	1
882.806	0	8	MI	I	0.544	1	1
886.389	0	8	MI	C	0.621	1	1
890.055	0	8	MI	I	0.759	1	1
895.672	0	8	MI	I	0.573	1	1
899.289	0	8	MI	I	0.74	1	1
901.272	0	8	MI	I	0.588	1	1
906.705	0	8	MI	I	0.756	1	1
908.105	0	8	MI	I	0.632	1	1
909.988	0	8	MI	C	0.553	1	1
912.388	0	8	MI	blank	NaN	NaN	1
915.505	0	8	MI	I	0.695	1	1
921.038	0	8	MI	C	0.878	1	1
928.554	0	8	MI	I	0.723	1	1
931.121	0	8	MI	blank	NaN	NaN	1
933.637	0	8	MI	C	0.801	1	1
936.887	0	8	MI	C	0.662	1	1
939.387	0	8	MI	I	0.596	1	1
942.437	0	8	MI	blank	NaN	NaN	1
949.154	0	8	MI	I	0.584	1	1
952.787	0	8	MI	I	0.736	1	1
955.953	0	8	MI	I	0.713	1	1
959.103	0	8	MI	I	0.687	1	1
964.636	0	8	MI	I	0.615	1	1
967.686	0	8	MI	I	0.848	1	1
970.386	0	8	MI	I	0.761	1	1
975.386	0	8	MI	I	0.6	0	1
977.819	0	8	MI	I	0.959	1	1
981.236	0	8	MI	I	0.603	1	1
984.286	0	8	MI	I	0.633	1	1
987.969	0	8	MI	C	0.728	1	1
992.336	0	8	MI	blank	NaN	NaN	1
997.252	0	8	MI	I	0.589	1	1
999.685	0	8	MI	I	0.668	1	1
1005.202	0	8	MI	blank	NaN	NaN	1
1008.319	0	8	MI	I	0.709	1	1
1011.485	0	8	MI	I	0.585	1	1
1015.102	0	8	MI	blank	NaN	NaN	1
1018.218	0	8	MI	C	0.762	1	1
1023.835	0	8	MI	blank	NaN	NaN	1
1029.351	0	8	MI	I	0.741	1	1
1033.134	0	8	MI	I	0.651	1	1
1035.034	0	8	MI	I	0.674	1	1
1037.551	0	8	MI	C	0.535	1	1
1041.134	0	8	MI	blank	NaN	NaN	1
1046.051	0	8	MI	I	0.623	1	1
1048.517	0	8	MI	I	0.633	1	1
1110.765	0	8	MC	cue	NaN	NaN	1
1120.765	0	8	MC	C	1.337	1	1
1125.148	0	8	MC	C	0.831	1	1
1128.431	0	8	MC	C	0.529	1	1
1131.998	0	8	MC	C	0.457	1	1
1133.698	0	8	MC	C	0.519	1	1
1136.664	0	8	MC	blank	NaN	NaN	1
1138.581	0	8	MC	C	0.512	1	1
1141.531	0	8	MC	C	0.564	1	1
1143.947	0	8	MC	C	0.58	1	1
1147.564	0	8	MC	C	0.507	1	1
1153.531	0	8	MC	C	0.577	1	1
1155.964	0	8	MC	C	0.561	1	1
1158.964	0	8	MC	C	0.531	1	1
1163.147	0	8	MC	C	0.699	1	1
1165.697	0	8	MC	C	0.504	1	1
1167.447	0	8	MC	blank	NaN	NaN	1
1171.763	0	8	MC	C	0.605	1	1
1174.213	0	8	MC	C	0.492	1	1
1176.547	0	8	MC	I	0.837	1	1
1179.83	0	8	MC	C	0.523	1	1
1183.996	0	8	MC	C	0.67	1	1
1187.713	0	8	MC	C	0.605	1	1
1193.763	0	8	MC	I	0.576	1	1
1195.596	0	8	MC	blank	NaN	NaN	1
1198.712	0	8	MC	C	0.588	1	1
1200.546	0	8	MC	I	1.195	1	1
1203.579	0	8	MC	blank	NaN	NaN	1
1206.096	0	8	MC	I	0.556	1	1
1210.895	0	8	MC	C	0.541	1	1
1215.695	0	8	MC	C	0.863	1	1
1219.612	0	8	MC	C	0.7	1	1
1225.762	0	8	MC	I	0.663	1	1
1229.478	0	8	MC	I	0.646	1	1
1233.178	0	8	MC	C	0.598	1	1
1235.628	0	8	MC	C	0.698	1	1
1239.378	0	8	MC	C	0.596	1	1
1243.028	0	8	MC	C	0.544	1	1
1244.811	0	8	MC	I	0.628	1	1
1248.478	0	8	MC	blank	NaN	NaN	1
1254.594	0	8	MC	I	0.592	1	1
1260.027	0	8	MC	C	0.649	1	1
1261.927	0	8	MC	I	0.574	1	1
1265.544	0	8	MC	C	0.934	1	1
1269.527	0	8	MC	C	0.591	1	1
1271.96	0	8	MC	C	0.534	1	1
1279.127	0	8	MC	I	0.638	1	1
1282.81	0	8	MC	C	0.908	1	1
1289.76	0	8	MC	I	0.68	1	1
1291.693	0	8	MC	C	0.551	1	1
1298.276	0	8	MC	C	0.676	0	1
1300.793	0	8	MC	C	0.609	1	1
1306.259	0	8	MC	blank	NaN	NaN	1
1309.976	0	8	MC	C	0.713	1	1
1316.742	0	8	MC	C	0.726	1	1
1318.709	0	8	MC	C	0.606	1	1
1324.758	0	8	MC	C	0.683	1	1
1327.275	0	8	MC	C	0.548	1	1
1331.458	0	8	MC	C	0.67	1	1
1335.175	0	8	MC	blank	NaN	NaN	1
1341.291	0	8	MC	C	0.967	1	1
1347.691	0	8	MC	C	0.554	1	1
1349.508	0	8	MC	I	1.054	1	1
1353.608	0	8	MC	blank	NaN	NaN	1
1356.724	0	8	MC	C	0.529	1	1
1358.507	0	8	MC	C	0.545	1	1
1362.691	0	8	MC	C	0.718	1	1
1365.84	0	8	MC	C	0.467	1	1
1368.757	0	8	MC	C	0.498	1	1
