onset	duration	subject	block	trial_type	rt	accuracy	run
29.166	0	10	MI	cue	NaN	NaN	2
39.666	0	10	MI	I	0.829	1	2
42.349	0	10	MI	I	0.632	1	2
44.216	0	10	MI	I	0.639	1	2
49.699	0	10	MI	I	0.552	1	2
56.899	0	10	MI	C	0.576	1	2
61.715	0	10	MI	I	0.807	1	2
65.565	0	10	MI	I	0.705	1	2
67.515	0	10	MI	I	0.585	1	2
69.348	0	10	MI	C	0.53	1	2
72.314	0	10	MI	I	0.7	1	2
74.848	0	10	MI	I	0.562	1	2
76.648	0	10	MI	I	0.636	1	2
80.331	0	10	MI	blank	NaN	NaN	2
85.847	0	10	MI	C	0.817	1	2
88.497	0	10	MI	C	0.523	1	2
90.864	0	10	MI	I	0.736	1	2
96.447	0	10	MI	I	0.631	1	2
98.33	0	10	MI	I	0.696	1	2
100.28	0	10	MI	I	0.493	1	2
104.413	0	10	MI	blank	NaN	NaN	2
106.93	0	10	MI	I	0.618	1	2
110.596	0	10	MI	C	0.736	1	2
114.38	0	10	MI	I	0.642	1	2
118.079	0	10	MI	I	0.518	1	2
121.646	0	10	MI	C	0.576	1	2
124.662	0	10	MI	blank	NaN	NaN	2
128.379	0	10	MI	I	0.526	1	2
130.746	0	10	MI	I	0.561	1	2
133.745	0	10	MI	C	0.854	1	2
136.445	0	10	MI	C	0.574	1	2
138.262	0	10	MI	blank	NaN	NaN	2
141.979	0	10	MI	I	0.673	1	2
149.895	0	10	MI	I	0.681	1	2
151.811	0	10	MI	I	0.606	1	2
157.278	0	10	MI	C	0.63	1	2
159.161	0	10	MI	blank	NaN	NaN	2
161.678	0	10	MI	I	0.827	1	2
164.944	0	10	MI	I	0.628	1	2
166.828	0	10	MI	I	0.603	1	2
169.278	0	10	MI	I	0.628	1	2
172.361	0	10	MI	I	0.569	1	2
177.161	0	10	MI	blank	NaN	NaN	2
179.077	0	10	MI	I	0.576	1	2
183.894	0	10	MI	I	0.691	1	2
189.427	0	10	MI	I	0.688	1	2
193.76	0	10	MI	I	0.576	1	2
199.193	0	10	MI	blank	NaN	NaN	2
201.71	0	10	MI	I	0.673	1	2
208.426	0	10	MI	I	0.505	1	2
210.776	0	10	MI	I	0.74	1	2
212.759	0	10	MI	C	0.644	1	2
216.442	0	10	MI	I	0.974	1	2
219.859	0	10	MI	I	0.635	1	2
221.725	0	10	MI	I	0.659	1	2
225.442	0	10	MI	I	0.668	1	2
227.959	0	10	MI	I	0.68	1	2
231.692	0	10	MI	I	0.721	1	2
234.858	0	10	MI	C	0.555	1	2
238.458	0	10	MI	blank	NaN	NaN	2
243.975	0	10	MI	I	0.618	1	2
246.441	0	10	MI	C	0.724	1	2
251.408	0	10	MI	I	0.806	1	2
255.258	0	10	MI	I	0.707	1	2
259.607	0	10	MI	I	0.671	1	2
262.124	0	10	MI	I	0.58	1	2
265.141	0	10	MI	I	0.656	1	2
271.84	0	10	MI	I	0.696	1	2
274.973	0	10	MI	I	0.601	1	2
338.304	0	10	MI	cue	NaN	NaN	2
348.804	0	10	MI	I	0.682	1	2
350.721	0	10	MI	I	0.585	1	2
353.154	0	10	MI	I	0.673	1	2
356.287	0	10	MI	I	0.549	1	2
359.287	0	10	MI	I	0.684	1	2
361.204	0	10	MI	blank	NaN	NaN	2
364.32	0	10	MI	I	0.597	1	2
367.353	0	10	MI	C	0.663	1	2
373.453	0	10	MI	blank	NaN	NaN	2
378.97	0	10	MI	I	0.893	1	2
381.103	0	10	MI	I	0.594	1	2
386.536	0	10	MI	I	0.565	1	2
391.352	0	10	MI	I	0.615	1	2
395.619	0	10	MI	I	0.619	1	2
396.886	0	10	MI	I	0.627	1	2
399.952	0	10	MI	blank	NaN	NaN	2
404.269	0	10	MI	C	0.71	1	2
409.818	0	10	MI	I	0.632	1	2
415.285	0	10	MI	I	0.639	1	2
418.968	0	10	MI	I	0.508	1	2
421.318	0	10	MI	C	0.709	1	2
425.668	0	10	MI	blank	NaN	NaN	2
429.384	0	10	MI	I	0.736	1	2
434.967	0	10	MI	C	0.6	1	2
438.017	0	10	MI	I	0.812	1	2
441.867	0	10	MI	I	0.562	1	2
443.667	0	10	MI	I	0.645	1	2
445.55	0	10	MI	I	0.701	1	2
451.1	0	10	MI	I	0.787	1	2
455.533	0	10	MI	I	0.654	1	2
457.433	0	10	MI	C	0.725	1	2
460.617	0	10	MI	blank	NaN	NaN	2
464.933	0	10	MI	I	0.645	1	2
471.616	0	10	MI	I	0.648	1	2
475.916	0	10	MI	I	0.571	1	2
478.333	0	10	MI	I	0.944	1	2
481.116	0	10	MI	I	0.545	1	2
488.899	0	10	MI	blank	NaN	NaN	2
494.415	0	10	MI	I	0.638	1	2
499.898	0	10	MI	I	0.702	1	2
504.848	0	10	MI	blank	NaN	NaN	2
507.965	0	10	MI	I	0.737	1	2
511.148	0	10	MI	I	0.657	1	2
515.448	0	10	MI	C	0.594	1	2
519.081	0	10	MI	I	0.571	1	2
521.498	0	10	MI	I	0.682	1	2
524.031	0	10	MI	I	0.78	1	2
527.247	0	10	MI	I	0.732	1	2
531.014	0	10	MI	C	0.667	1	2
534.73	0	10	MI	C	0.727	1	2
540.913	0	10	MI	I	1.153	1	2
543.913	0	10	MI	I	1.315	1	2
548.28	0	10	MI	I	0.612	1	2
550.146	0	10	MI	I	0.742	1	2
556.929	0	10	MI	I	0.626	1	2
559.396	0	10	MI	I	0.832	1	2
565.679	0	10	MI	I	0.758	1	2
567.679	0	10	MI	I	0.675	1	2
571.412	0	10	MI	I	0.693	1	2
575.746	0	10	MI	C	0.52	1	2
577.512	0	10	MI	I	0.663	1	2
585.412	0	10	MI	C	0.599	0	2
587.862	0	10	MI	blank	NaN	NaN	2
590.978	0	10	MI	I	0.688	1	2
594.711	0	10	MI	C	0.537	1	2
599.495	0	10	MI	I	0.836	1	2
602.178	0	10	MI	I	0.778	1	2
605.394	0	10	MI	C	0.582	1	2
662.459	0	10	MI	cue	NaN	NaN	2
672.958	0	10	MI	I	0.804	1	2
676.808	0	10	MI	I	0.634	1	2
681.692	0	10	MI	I	0.771	1	2
683.708	0	10	MI	I	0.642	1	2
687.391	0	10	MI	I	0.656	1	2
689.891	0	10	MI	blank	NaN	NaN	2
697.208	0	10	MI	I	0.625	1	2
700.891	0	10	MI	I	0.725	1	2
705.857	0	10	MI	I	0.636	1	2
711.34	0	10	MI	I	0.678	1	2
714.473	0	10	MI	I	0.642	1	2
722.357	0	10	MI	I	0.701	1	2
728.49	0	10	MI	I	0.684	1	2
736.406	0	10	MI	C	0.655	1	2
741.906	0	10	MI	I	0.886	1	2
745.239	0	10	MI	I	0.57	1	2
748.856	0	10	MI	blank	NaN	NaN	2
753.772	0	10	MI	I	0.598	1	2
755.622	0	10	MI	I	0.696	1	2
757.572	0	10	MI	blank	NaN	NaN	2
759.489	0	10	MI	I	0.775	1	2
763.322	0	10	MI	I	0.532	1	2
767.505	0	10	MI	I	0.782	1	2
769.538	0	10	MI	C	0.586	1	2
773.155	0	10	MI	blank	NaN	NaN	2
776.271	0	10	MI	I	0.749	1	2
783.071	0	10	MI	I	0.826	1	2
786.938	0	10	MI	C	0.688	1	2
788.871	0	10	MI	I	0.721	1	2
793.837	0	10	MI	I	0.65	1	2
797.52	0	10	MI	I	0.581	1	2
799.954	0	10	MI	C	0.643	1	2
806.637	0	10	MI	I	0.735	1	2
811.02	0	10	MI	blank	NaN	NaN	2
814.736	0	10	MI	I	0.638	1	2
820.22	0	10	MI	C	0.693	1	2
823.353	0	10	MI	blank	NaN	NaN	2
825.269	0	10	MI	I	0.738	1	2
829.053	0	10	MI	C	0.942	1	2
833.036	0	10	MI	I	0.7	1	2
840.369	0	10	MI	I	0.673	1	2
844.085	0	10	MI	I	0.578	1	2
845.919	0	10	MI	I	0.699	1	2
850.268	0	10	MI	I	0.757	1	2
853.485	0	10	MI	I	0.679	1	2
855.418	0	10	MI	I	0.618	1	2
859.085	0	10	MI	I	0.757	1	2
861.085	0	10	MI	C	0.603	1	2
862.935	0	10	MI	blank	NaN	NaN	2
866.651	0	10	MI	I	0.843	1	2
869.951	0	10	MI	I	0.729	1	2
873.134	0	10	MI	I	0.786	1	2
876.967	0	10	MI	I	1.075	1	2
884.084	0	10	MI	C	0.638	1	2
887.767	0	10	MI	I	0.811	1	2
890.434	0	10	MI	I	0.786	1	2
898.467	0	10	MI	C	0.747	1	2
904.066	0	10	MI	I	0.802	1	2
907.916	0	10	MI	C	0.696	1	2
912.249	0	10	MI	I	0.986	1	2
914.483	0	10	MI	I	0.812	1	2
916.549	0	10	MI	C	0.653	1	2
920.249	0	10	MI	C	0.62	1	2
925.716	0	10	MI	blank	NaN	NaN	2
928.832	0	10	MI	I	0.822	1	2
933.899	0	10	MI	I	0.771	1	2
936.515	0	10	MI	I	0.745	1	2
939.115	0	10	MI	I	0.64	1	2
1000.446	0	10	MC	cue	NaN	NaN	2
1010.446	0	10	MC	C	0.834	1	2
1014.929	0	10	MC	C	0.578	1	2
1017.362	0	10	MC	C	0.675	1	2
1019.895	0	10	MC	C	0.679	1	2
1024.212	0	10	MC	I	0.699	1	2
1028.545	0	10	MC	C	0.61	1	2
1031.012	0	10	MC	C	0.527	1	2
1032.778	0	10	MC	C	0.571	1	2
1036.395	0	10	MC	C	0.608	0	2
1043.044	0	10	MC	C	0.624	1	2
1046.111	0	10	MC	I	0.799	1	2
1048.761	0	10	MC	blank	NaN	NaN	2
1055.477	0	10	MC	I	0.871	1	2
1058.194	0	10	MC	C	0.838	1	2
1061.477	0	10	MC	I	0.814	1	2
1063.544	0	10	MC	I	0.732	1	2
1066.727	0	10	MC	C	0.604	1	2
1073.377	0	10	MC	C	0.614	1	2
1075.827	0	10	MC	I	0.882	1	2
1078.56	0	10	MC	blank	NaN	NaN	2
1084.076	0	10	MC	C	0.902	1	2
1088.626	0	10	MC	C	0.946	1	2
1092.009	0	10	MC	C	0.662	1	2
1097.526	0	10	MC	C	0.635	1	2
1099.409	0	10	MC	C	0.767	1	2
1104.425	0	10	MC	blank	NaN	NaN	2
1111.142	0	10	MC	C	0.676	1	2
1114.258	0	10	MC	C	0.571	1	2
1117.875	0	10	MC	blank	NaN	NaN	2
1120.991	0	10	MC	C	0.733	1	2
1125.358	0	10	MC	C	0.532	1	2
1128.941	0	10	MC	C	0.633	1	2
1132.024	0	10	MC	C	0.664	1	2
1138.724	0	10	MC	C	0.57	1	2
1141.141	0	10	MC	I	0.804	1	2
1147.974	0	10	MC	blank	NaN	NaN	2
1149.891	0	10	MC	C	0.934	1	2
1152.074	0	10	MC	C	0.652	1	2
1155.174	0	10	MC	C	0.745	1	2
1158.373	0	10	MC	C	0.612	1	2
1162.04	0	10	MC	C	0.601	1	2
1163.89	0	10	MC	C	0.749	1	2
1168.873	0	10	MC	I	0.737	1	2
1175.056	0	10	MC	C	0.833	1	2
1178.339	0	10	MC	C	0.614	1	2
1180.206	0	10	MC	C	0.613	1	2
1186.272	0	10	MC	C	0.601	1	2
1189.322	0	10	MC	C	0.562	1	2
1192.339	0	10	MC	C	0.587	1	2
1195.972	0	10	MC	C	0.501	1	2
1201.922	0	10	MC	C	0.687	1	2
1205.055	0	10	MC	I	0.755	1	2
1207.072	0	10	MC	blank	NaN	NaN	2
1210.788	0	10	MC	I	0.781	1	2
1214.621	0	10	MC	C	0.731	1	2
1218.388	0	10	MC	I	0.713	1	2
1220.954	0	10	MC	C	0.658	1	2
1224.654	0	10	MC	C	0.565	1	2
1226.471	0	10	MC	C	0.648	1	2
1234.354	0	10	MC	C	0.751	1	2
1237.537	0	10	MC	blank	NaN	NaN	2
1242.454	0	10	MC	I	0.857	1	2
1245.753	0	10	MC	C	0.601	1	2
1249.387	0	10	MC	C	0.93	1	2
1251.553	0	10	MC	blank	NaN	NaN	2
1257.07	0	10	MC	C	0.625	1	2
1264.936	0	10	MC	C	0.603	1	2
1269.186	0	10	MC	C	0.754	1	2
