onset	duration	subject	block	trial_type	rt	accuracy	run
84.747	0	12	MC	cue	NaN	NaN	1
95.246	0	12	MC	C	0.768	1	1
97.263	0	12	MC	C	0.538	1	1
102.646	0	12	MC	C	0.765	1	1
105.246	0	12	MC	C	0.486	1	1
106.979	0	12	MC	C	0.604	1	1
110.029	0	12	MC	C	0.514	1	1
111.796	0	12	MC	C	0.582	1	1
115.412	0	12	MC	C	0.512	1	1
119.562	0	12	MC	blank	NaN	NaN	1
123.279	0	12	MC	I	0.513	1	1
126.245	0	12	MC	C	0.485	1	1
130.379	0	12	MC	C	0.524	1	1
133.345	0	12	MC	C	0.67	1	1
137.662	0	12	MC	C	0.554	1	1
141.261	0	12	MC	C	0.653	1	1
143.761	0	12	MC	I	0.738	1	1
145.745	0	12	MC	blank	NaN	NaN	1
149.461	0	12	MC	C	0.584	1	1
154.894	0	12	MC	C	0.549	1	1
156.694	0	12	MC	I	0.708	1	1
158.644	0	12	MC	C	0.725	1	1
161.211	0	12	MC	I	0.702	1	1
163.161	0	12	MC	C	0.706	1	1
166.911	0	12	MC	I	0.68	1	1
170.644	0	12	MC	blank	NaN	NaN	1
173.76	0	12	MC	C	0.568	1	1
179.777	0	12	MC	C	0.937	1	1
182.56	0	12	MC	C	0.541	1	1
185.543	0	12	MC	C	0.615	1	1
192.21	0	12	MC	C	0.59	1	1
195.86	0	12	MC	I	0.675	1	1
200.776	0	12	MC	C	0.59	1	1
204.409	0	12	MC	C	0.541	1	1
206.209	0	12	MC	C	0.519	1	1
210.959	0	12	MC	C	0.754	1	1
212.959	0	12	MC	C	0.6	1	1
216.592	0	12	MC	C	0.465	1	1
220.692	0	12	MC	C	0.648	1	1
222.592	0	12	MC	C	0.617	1	1
226.858	0	12	MC	C	0.64	1	1
233.541	0	12	MC	C	0.825	1	1
235.608	0	12	MC	blank	NaN	NaN	1
238.724	0	12	MC	C	0.495	1	1
240.458	0	12	MC	C	0.46	1	1
242.158	0	12	MC	C	0.535	1	1
248.741	0	12	MC	I	0.65	1	1
251.841	0	12	MC	blank	NaN	NaN	1
255.557	0	12	MC	C	0.656	1	1
259.257	0	12	MC	C	0.54	1	1
262.24	0	12	MC	I	0.628	1	1
267.707	0	12	MC	C	0.542	1	1
270.09	0	12	MC	C	0.676	1	1
275.623	0	12	MC	C	0.59	0	1
279.856	0	12	MC	C	0.707	1	1
283.623	0	12	MC	I	0.665	1	1
287.922	0	12	MC	C	0.443	1	1
289.622	0	12	MC	I	0.891	1	1
294.156	0	12	MC	C	0.553	1	1
297.755	0	12	MC	C	0.557	1	1
301.355	0	12	MC	C	0.534	1	1
303.122	0	12	MC	blank	NaN	NaN	1
309.838	0	12	MC	I	0.678	1	1
312.372	0	12	MC	C	0.604	1	1
315.422	0	12	MC	blank	NaN	NaN	1
319.738	0	12	MC	C	0.653	1	1
322.221	0	12	MC	I	0.79	1	1
324.871	0	12	MC	blank	NaN	NaN	1
326.788	0	12	MC	C	0.866	1	1
393.985	0	12	MI	cue	NaN	NaN	1
404.485	0	12	MI	I	0.928	1	1
407.268	0	12	MI	I	0.686	1	1
411.001	0	12	MI	I	0.631	1	1
413.484	0	12	MI	I	0.554	1	1
415.884	0	12	MI	I	0.618	1	1
418.951	0	12	MI	I	0.547	1	1
423.751	0	12	MI	I	0.772	1	1
428.167	0	12	MI	I	1.115	1	1
431.734	0	12	MI	I	0.847	1	1
434.434	0	12	MI	I	0.585	1	1
441.067	0	12	MI	I	0.733	1	1
445.433	0	12	MI	I	0.823	1	1
450.5	0	12	MI	blank	NaN	NaN	1
454.216	0	12	MI	I	0.747	1	1
456.799	0	12	MI	I	0.603	1	1
459.833	0	12	MI	I	0.691	1	1
462.366	0	12	MI	I	0.59	1	1
464.799	0	12	MI	C	0.978	1	1
468.832	0	12	MI	blank	NaN	NaN	1
471.949	0	12	MI	I	0.651	1	1
475.049	0	12	MI	I	0.715	1	1
481.798	0	12	MI	C	0.747	1	1
486.182	0	12	MI	I	0.673	1	1
489.898	0	12	MI	C	0.681	1	1
493.615	0	12	MI	I	0.649	1	1
495.498	0	12	MI	I	0.603	1	1
497.348	0	12	MI	I	0.634	0	1
500.431	0	12	MI	blank	NaN	NaN	1
506.547	0	12	MI	I	0.65	1	1
508.431	0	12	MI	C	0.613	1	1
510.897	0	12	MI	C	0.73	1	1
516.464	0	12	MI	C	0.673	1	1
519.58	0	12	MI	blank	NaN	NaN	1
523.897	0	12	MI	C	0.826	1	1
527.163	0	12	MI	I	0.61	1	1
529.63	0	12	MI	I	0.59	1	1
533.28	0	12	MI	I	0.621	1	1
535.746	0	12	MI	I	0.594	1	1
537.596	0	12	MI	blank	NaN	NaN	1
543.713	0	12	MI	I	0.738	1	1
545.679	0	12	MI	I	0.531	1	1
551.063	0	12	MI	C	0.623	1	1
554.146	0	12	MI	I	0.585	1	1
557.179	0	12	MI	I	0.632	0	1
560.862	0	12	MI	C	0.579	1	1
562.695	0	12	MI	blank	NaN	NaN	1
566.412	0	12	MI	I	0.62	1	1
569.479	0	12	MI	I	0.742	1	1
571.478	0	12	MI	I	0.6	1	1
573.912	0	12	MI	I	0.617	1	1
575.778	0	12	MI	I	0.697	1	1
582.511	0	12	MI	I	0.546	1	1
585.511	0	12	MI	I	0.67	1	1
589.828	0	12	MI	I	0.595	1	1
592.861	0	12	MI	I	0.604	1	1
595.911	0	12	MI	blank	NaN	NaN	1
599.027	0	12	MI	I	0.614	1	1
602.094	0	12	MI	C	0.681	1	1
606.427	0	12	MI	I	0.868	1	1
608.544	0	12	MI	I	0.522	1	1
610.31	0	12	MI	I	0.596	1	1
612.16	0	12	MI	I	0.46	1	1
614.46	0	12	MI	C	0.429	1	1
619.143	0	12	MI	blank	NaN	NaN	1
621.66	0	12	MI	I	0.789	1	1
624.91	0	12	MI	C	0.536	1	1
629.093	0	12	MI	I	0.586	1	1
630.926	0	12	MI	I	0.473	1	1
700.057	0	12	MI	cue	NaN	NaN	1
710.556	0	12	MI	I	0.886	1	1
714.49	0	12	MI	I	0.614	1	1
717.556	0	12	MI	I	0.629	1	1
720.039	0	12	MI	I	0.452	1	1
722.339	0	12	MI	C	0.511	1	1
726.489	0	12	MI	I	0.511	1	1
729.456	0	12	MI	blank	NaN	NaN	1
731.972	0	12	MI	I	0.671	1	1
735.089	0	12	MI	I	0.526	1	1
736.856	0	12	MI	I	0.472	0	1
740.372	0	12	MI	blank	NaN	NaN	1
744.088	0	12	MI	I	0.618	1	1
746.555	0	12	MI	I	0.65	1	1
749.055	0	12	MI	I	0.617	1	1
752.721	0	12	MI	I	0.48	1	1
756.838	0	12	MI	I	0.547	1	1
763.438	0	12	MI	I	0.627	1	1
768.921	0	12	MI	I	0.628	1	1
774.387	0	12	MI	I	1.082	1	1
778.521	0	12	MI	I	0.774	1	1
782.337	0	12	MI	I	0.662	1	1
784.237	0	12	MI	I	0.534	1	1
789.02	0	12	MI	C	0.816	1	1
793.47	0	12	MI	I	0.611	1	1
795.937	0	12	MI	blank	NaN	NaN	1
799.053	0	12	MI	C	2.103	1	1
804.803	0	12	MI	I	0.502	1	1
811.353	0	12	MI	I	0.883	1	1
814.086	0	12	MI	I	0.597	1	1
817.736	0	12	MI	C	0.491	1	1
823.069	0	12	MI	blank	NaN	NaN	1
826.785	0	12	MI	C	0.528	1	1
830.352	0	12	MI	I	0.665	1	1
834.652	0	12	MI	I	0.56	1	1
838.268	0	12	MI	I	0.673	1	1
840.202	0	12	MI	I	0.628	1	1
843.268	0	12	MI	I	0.904	1	1
846.018	0	12	MI	C	0.561	1	1
850.218	0	12	MI	I	0.587	1	1
852.651	0	12	MI	I	0.652	1	1
856.351	0	12	MI	I	0.548	0	1
859.334	0	12	MI	I	0.612	1	1
862.401	0	12	MI	I	0.818	1	1
869.867	0	12	MI	blank	NaN	NaN	1
875.983	0	12	MI	I	0.617	1	1
880.233	0	12	MI	I	0.751	1	1
884.033	0	12	MI	C	0.792	1	1
889.083	0	12	MI	blank	NaN	NaN	1
892.8	0	12	MI	C	0.612	1	1
896.449	0	12	MI	I	0.526	1	1
898.233	0	12	MI	I	0.646	1	1
904.916	0	12	MI	I	0.823	1	1
908.182	0	12	MI	I	0.679	1	1
913.116	0	12	MI	C	0.709	1	1
917.482	0	12	MI	I	0.629	1	1
922.348	0	12	MI	C	0.637	1	1
926.032	0	12	MI	blank	NaN	NaN	1
929.748	0	12	MI	C	0.579	1	1
932.765	0	12	MI	I	0.785	1	1
934.798	0	12	MI	I	0.622	1	1
937.264	0	12	MI	I	0.56	1	1
941.464	0	12	MI	I	0.656	1	1
943.364	0	12	MI	I	0.72	0	1
945.348	0	12	MI	C	0.804	1	1
949.197	0	12	MI	blank	NaN	NaN	1
952.914	0	12	MI	I	0.674	1	1
956.647	0	12	MI	I	0.597	1	1
960.297	0	12	MI	I	0.652	1	1
1017.212	0	12	MC	cue	NaN	NaN	1
1027.711	0	12	MC	C	1.107	1	1
1031.261	0	12	MC	C	0.652	1	1
1033.161	0	12	MC	C	0.483	1	1
1035.477	0	12	MC	C	0.515	1	1
1037.844	0	12	MC	I	0.949	1	1
1041.244	0	12	MC	C	0.458	1	1
1044.744	0	12	MC	blank	NaN	NaN	1
1050.86	0	12	MC	I	0.724	1	1
1054.627	0	12	MC	blank	NaN	NaN	1
1058.943	0	12	MC	I	0.706	1	1
1062.11	0	12	MC	C	0.63	1	1
1068.793	0	12	MC	C	0.654	1	1
1074.293	0	12	MC	C	0.571	1	1
1076.709	0	12	MC	I	1.306	1	1
1081.059	0	12	MC	C	0.629	1	1
1084.726	0	12	MC	C	0.569	1	1
1087.742	0	12	MC	I	0.908	1	1
1092.892	0	12	MC	C	0.655	1	1
1094.792	0	12	MC	C	0.582	1	1
1099.608	0	12	MC	blank	NaN	NaN	1
1102.725	0	12	MC	C	0.74	1	1
1105.308	0	12	MC	C	0.483	1	1
1113.041	0	12	MC	I	0.563	1	1
1116.641	0	12	MC	C	0.614	1	1
1118.491	0	12	MC	C	0.765	1	1
1121.107	0	12	MC	I	0.605	1	1
1124.758	0	12	MC	C	0.564	1	1
1128.357	0	12	MC	I	0.698	1	1
1130.907	0	12	MC	blank	NaN	NaN	1
1133.424	0	12	MC	C	0.574	1	1
1139.457	0	12	MC	C	0.81	1	1
1146.323	0	12	MC	C	0.643	1	1
1150.623	0	12	MC	C	0.581	1	1
1157.256	0	12	MC	I	0.872	1	1
1161.173	0	12	MC	blank	NaN	NaN	1
1165.489	0	12	MC	C	0.632	1	1
1168.572	0	12	MC	C	0.967	1	1
1174.389	0	12	MC	blank	NaN	NaN	1
1181.105	0	12	MC	C	0.674	1	1
1183.622	0	12	MC	C	0.523	1	1
1185.988	0	12	MC	C	0.765	1	1
1189.788	0	12	MC	C	1.117	1	1
1195.738	0	12	MC	C	0.69	1	1
1201.888	0	12	MC	C	0.645	1	1
1204.988	0	12	MC	C	0.675	1	1
1207.504	0	12	MC	I	0.668	1	1
1210.621	0	12	MC	I	0.632	1	1
1213.104	0	12	MC	blank	NaN	NaN	1
1215.621	0	12	MC	C	0.575	1	1
1217.454	0	12	MC	C	0.652	1	1
1221.154	0	12	MC	C	0.671	1	1
1223.67	0	12	MC	C	0.659	1	1
1230.37	0	12	MC	C	0.738	1	1
1233.553	0	12	MC	C	0.657	1	1
1236.653	0	12	MC	C	0.551	1	1
1244.453	0	12	MC	C	0.623	1	1
1246.919	0	12	MC	C	0.491	1	1
1248.669	0	12	MC	C	0.737	1	1
1254.252	0	12	MC	blank	NaN	NaN	1
1257.969	0	12	MC	C	0.611	0	1
1260.436	0	12	MC	C	0.67	1	1
1263.535	0	12	MC	C	0.722	1	1
1267.302	0	12	MC	C	0.871	1	1
1271.802	0	12	MC	C	0.65	1	1
1274.302	0	12	MC	C	0.881	1	1
1279.435	0	12	MC	C	0.621	1	1
1282.501	0	12	MC	C	0.748	1	1
1286.301	0	12	MC	I	1.559	1	1
